STUDYID,DOMAIN,USUBJID,AESEQ,AETERM,AEDECOD,AEBODSYS,AESTDTC,AEENDTC,AESTDY,AEENDY,AESEV,AESER,AESDTH,AEREL,AEACN,AEOUT,EPOCH
NCT01797120,AE,NCT01797120-0037,1,PNEUMONIA,PNEUMONIA,INFECTIONS AND INFESTATIONS,2024-01-21,2025-04-15,577,1027,SEVERE,Y,Y,NOT RELATED,DRUG WITHDRAWN,FATAL,CONTINUATION
